aX,aY,aZ,gX,gY,gZ
1.593,0.734,0.394,2.686,28.748,40.588
1.731,0.795,0.412,-1.709,32.104,43.823
1.905,0.787,0.432,-3.601,35.095,43.457
2.124,0.788,0.428,-14.587,42.542,47.363
2.175,0.901,0.368,-48.828,54.993,58.777
2.417,1.051,0.124,-80.750,72.205,72.449
2.653,1.316,-0.142,-122.314,80.139,87.769
2.905,1.554,-0.184,-152.466,70.496,92.529
3.021,1.712,0.140,-158.997,47.668,79.102
3.102,1.808,0.507,-134.399,37.720,45.532
3.174,1.492,0.554,-62.134,52.979,-13.489
3.062,0.666,0.149,12.695,89.539,-86.243
2.928,-0.374,-0.889,61.035,134.644,-136.414
2.592,-1.369,-2.207,51.636,160.645,-141.235
2.150,-1.849,-3.165,-33.630,134.888,-90.332
1.603,-1.643,-3.645,-130.554,63.904,2.869
0.878,-0.974,-3.938,-223.022,-10.193,99.915
-0.185,-0.784,-4.000,-281.494,-82.031,150.757
-1.429,-1.061,-3.773,-268.311,-173.950,167.236
-2.758,-0.917,-2.908,-188.293,-288.025,206.177
-3.988,-0.067,-1.627,-91.492,-392.334,269.348
-4.000,1.039,-0.640,0.000,-454.529,316.406
-4.000,1.212,-0.021,58.777,-484.253,297.119
-4.000,0.099,0.619,69.153,-514.404,234.985
-4.000,-0.156,2.397,15.137,-579.529,262.939
-4.000,1.771,4.000,-47.302,-674.988,421.875
-4.000,4.000,4.000,-78.003,-769.287,579.407
-4.000,4.000,4.000,55.542,-750.183,626.648
-3.274,4.000,4.000,253.540,-213.562,426.636
-4.000,4.000,2.738,103.333,884.399,-190.796
-4.000,-1.307,-4.000,-129.395,1403.748,-801.636
-4.000,-4.000,-4.000,-125.122,942.993,-952.454
-2.613,-4.000,-4.000,-54.688,441.772,-672.485
-1.295,-3.952,-4.000,-36.316,256.958,-202.209
-0.844,-1.232,-3.934,-34.851,153.992,123.596
-0.447,0.086,-2.880,-4.150,37.903,188.721
-0.154,0.290,-1.710,14.954,-39.246,152.771
-0.070,0.305,-0.987,30.090,-53.772,120.117
0.000,0.573,-0.665,34.241,-39.307,121.033
0.010,1.093,-0.441,41.199,-32.471,136.780
0.045,1.584,-0.283,52.246,-28.198,133.423
0.082,1.764,-0.146,40.161,-22.522,96.191
0.080,1.532,-0.052,13.428,-15.015,37.964
0.062,1.119,0.009,-7.202,-6.897,-6.531
0.070,0.890,0.197,-12.085,-6.958,-19.226
0.091,0.876,0.418,-6.470,-7.751,-12.146
0.066,0.908,0.519,5.249,1.404,-5.127
0.020,0.933,0.483,18.921,17.456,-3.113
-0.004,0.961,0.443,24.536,28.992,-2.441
-0.016,0.952,0.455,24.170,32.593,-4.822
-0.012,0.923,0.446,20.325,35.278,-10.132
0.024,0.901,0.430,22.644,37.048,-15.137
0.052,0.837,0.409,26.611,38.391,-21.667
0.067,0.786,0.430,25.330,37.231,-27.222
0.109,0.792,0.465,26.489,35.339,-28.992
0.150,0.787,0.519,28.564,35.889,-31.677
0.172,0.772,0.460,24.780,42.908,-33.875
0.192,0.704,0.350,25.818,51.147,-36.987
0.196,0.609,0.330,20.752,51.514,-38.635
0.212,0.581,0.351,15.686,48.401,-34.485
0.226,0.629,0.333,14.954,48.157,-25.696
0.238,0.722,0.301,15.381,48.035,-18.127
0.261,0.834,0.320,16.479,44.678,-14.771
0.278,0.861,0.347,16.418,41.992,-19.104
0.294,0.878,0.355,22.644,40.344,-24.292
0.340,0.839,0.272,38.940,42.908,-28.809
0.404,0.716,0.215,46.326,42.175,-34.119
0.472,0.614,0.212,38.818,35.522,-34.119
0.515,0.620,0.205,31.189,31.189,-25.452
0.585,0.673,0.179,21.851,28.442,-15.930
0.612,0.747,0.218,15.015,19.226,-7.507
0.575,0.794,0.323,7.507,8.789,-3.784
0.567,0.821,0.385,6.042,6.775,-4.639
0.588,0.874,0.420,10.010,8.850,-6.714
0.545,0.917,0.435,14.465,11.658,-10.071
0.495,0.879,0.402,16.907,16.357,-18.555
0.505,0.842,0.340,19.775,19.348,-26.306
0.609,0.750,0.227,24.292,19.653,-29.541
0.441,0.676,0.226,10.437,14.160,-25.146
0.615,0.721,0.088,9.338,7.690,-14.648
0.659,0.784,0.114,32.959,-6.165,-9.827
0.684,1.015,0.448,10.986,-32.654,-1.282
0.718,1.034,0.540,9.033,-28.687,-9.888
0.683,0.878,0.425,18.738,-11.841,-28.992
0.649,0.672,0.316,10.742,-3.967,-42.236
0.632,0.564,0.406,-4.395,-7.263,-45.471
0.623,0.481,0.446,-12.695,-4.272,-44.739
0.595,0.425,0.384,-12.512,4.150,-40.466
0.654,0.466,0.397,-12.939,5.615,-31.738
0.732,0.653,0.376,-18.799,8.606,-19.226
0.710,0.823,0.197,-23.804,21.362,-12.390
0.787,0.949,-0.057,-19.958,27.039,-12.573
0.807,1.172,-0.039,-17.883,13.733,-15.076
0.822,1.344,0.025,-14.465,-2.258,-26.550
0.776,1.294,0.078,4.333,-10.986,-54.810
0.711,0.993,0.135,15.381,-15.442,-90.271
0.672,0.632,0.190,18.799,-20.020,-113.586
0.707,0.368,0.295,17.944,-24.109,-118.286
0.743,0.149,0.320,21.423,-27.283,-107.971
0.743,0.157,0.429,20.325,-35.645,-81.787
0.784,0.326,0.523,3.540,-37.537,-52.795
0.812,0.473,0.476,-3.906,-31.494,-36.133
0.834,0.532,0.318,-10.437,-23.560,-30.823
0.838,0.638,0.130,-11.353,-21.362,-26.062
0.828,0.780,0.044,-9.888,-29.724,-22.278
0.839,0.812,0.192,-11.108,-49.194,-28.381
0.830,0.717,0.434,-12.817,-66.345,-41.077
0.869,0.543,0.590,-1.587,-68.970,-50.964
0.832,0.477,0.686,6.348,-62.622,-48.279
0.848,0.452,0.676,10.986,-49.805,-40.283
0.835,0.491,0.640,12.695,-37.415,-31.189
0.831,0.519,0.601,8.118,-27.954,-23.743
0.818,0.584,0.604,2.258,-21.484,-18.066
0.823,0.631,0.547,1.038,-12.512,-15.564
0.824,0.619,0.408,0.488,-3.174,-16.602
0.806,0.566,0.227,-1.038,2.258,-17.883
0.818,0.533,0.116,3.418,-1.709,-15.503
0.856,0.581,0.179,5.371,-16.235,-8.362
0.883,0.675,0.375,6.165,-34.485,-2.441

1.384,0.536,0.741,26.489,20.874,6.165
1.528,0.547,0.695,26.794,34.363,17.090
1.694,0.703,0.541,19.104,51.086,34.668
1.917,0.934,0.388,3.540,64.392,52.063
2.147,1.045,0.317,-18.433,69.885,61.340
2.449,1.142,0.354,-49.377,70.435,68.726
2.781,1.340,0.485,-72.205,66.650,77.271
3.061,1.565,0.748,-84.656,60.120,76.721
3.150,1.741,1.131,-88.013,56.824,56.335
3.252,1.716,1.385,-68.542,73.975,13.489
3.225,1.268,1.016,-31.677,127.197,-49.561
2.927,0.508,-0.060,-12.512,199.036,-112.732
2.631,-0.306,-1.635,-4.639,251.221,-146.851
2.361,-0.949,-3.193,-25.757,253.235,-138.611
1.973,-1.271,-4.000,-70.435,190.613,-100.891
1.434,-1.439,-4.000,-101.929,91.003,-55.542
0.606,-1.902,-4.000,-117.554,-12.695,-20.752
-0.392,-2.581,-4.000,-126.404,-125.000,23.071
-1.544,-2.789,-3.193,-126.282,-239.746,111.328
-2.893,-1.816,-1.986,-127.075,-334.229,248.108
-3.999,0.187,-0.507,-123.657,-409.851,390.442
-4.000,2.532,0.863,-78.796,-452.759,477.234
-4.000,3.519,1.170,-12.756,-420.654,416.687
-4.000,1.495,0.625,11.292,-369.080,222.351
-4.000,-0.823,1.518,-46.997,-411.316,125.854
-4.000,0.068,3.980,-131.042,-521.851,280.945
-4.000,3.886,4.000,-208.374,-575.684,557.190
-4.000,4.000,4.000,-197.449,-488.159,721.069
-2.939,4.000,4.000,-45.471,-240.784,607.300
-2.847,4.000,4.000,110.596,175.110,36.194
-4.000,2.040,1.825,94.666,594.849,-676.880
-4.000,-3.284,-1.780,0.061,837.646,-1030.090
-3.592,-4.000,-3.758,-26.489,724.060,-978.149
-2.131,-4.000,-4.000,5.127,528.931,-588.135
-1.211,-3.913,-4.000,48.645,321.838,-143.311
-0.765,-1.360,-3.157,11.292,107.666,163.879
-0.434,0.125,-1.686,-7.080,-38.818,263.977
-0.060,0.842,-0.667,-0.427,-86.182,259.644
0.089,1.181,-0.256,14.038,-62.256,211.548
0.159,1.405,-0.289,33.264,-17.090,151.978
0.167,1.578,-0.440,52.490,10.925,104.492
0.156,1.507,-0.584,61.218,21.851,54.504
0.135,1.158,-0.516,50.720,14.709,5.615
0.150,0.852,-0.208,32.104,-1.282,-19.104
0.148,0.760,0.107,26.672,-9.521,-18.188
0.117,0.787,0.276,32.532,-4.517,-9.888
0.102,0.862,0.339,41.870,5.432,-3.845
0.077,0.947,0.442,49.500,11.292,-2.441
0.037,0.984,0.513,56.396,17.395,-5.371
0.012,0.977,0.514,63.904,27.161,-13.611
0.001,0.966,0.490,65.796,36.560,-21.790
-0.019,0.959,0.503,54.993,41.809,-27.466
-0.018,0.957,0.507,45.471,45.654,-32.166
0.003,0.963,0.474,39.917,50.781,-36.194
0.022,0.942,0.449,33.691,54.199,-42.114
0.003,0.852,0.398,25.879,57.007,-50.049
0.009,0.744,0.270,18.921,62.256,-56.702
0.053,0.639,0.179,10.864,62.988,-58.838
0.044,0.521,0.223,-3.418,56.641,-56.824
0.103,0.450,0.205,-8.911,55.176,-50.903
0.158,0.368,0.182,-2.747,54.321,-44.312
0.196,0.360,0.124,7.019,49.988,-33.264
0.302,0.434,0.089,21.545,42.664,-18.066
0.396,0.586,0.128,33.752,32.349,-3.845
0.439,0.786,0.150,36.621,27.283,4.639
0.463,0.937,0.148,41.748,26.917,2.808
0.483,0.884,0.182,48.035,24.780,-11.780
0.486,0.679,0.212,40.588,23.132,-28.870
0.497,0.512,0.172,25.269,24.597,-31.921
0.525,0.464,0.111,12.878,24.536,-21.545
0.588,0.604,0.094,2.625,18.372,-4.089
0.645,0.834,0.103,-3.662,11.108,10.071
0.672,0.964,0.063,-4.395,8.301,12.390
0.667,0.993,0.055,-3.967,4.272,6.165
0.673,0.987,0.066,0.732,-0.732,-2.197
0.663,0.969,0.149,8.057,-7.324,-11.841
0.686,0.860,0.247,14.648,-12.085,-25.024
0.908,0.622,0.276,23.071,-12.390,-36.560
0.610,0.593,0.464,16.602,-12.329,-33.508
0.738,0.450,0.319,43.823,-3.906,-28.198
0.678,0.476,0.169,42.114,-0.122,-13.977
0.740,0.693,0.068,13.245,-6.897,7.080
0.765,0.966,0.070,0.671,-20.020,21.484
0.798,1.182,0.177,-19.043,-33.447,21.912
0.831,1.246,0.315,-17.883,-41.687,7.507
0.782,1.105,0.372,-11.597,-38.513,-17.578
0.734,0.819,0.300,3.357,-27.710,-40.283
0.716,0.482,0.329,19.592,-27.161,-52.490
0.683,0.242,0.477,18.860,-34.607,-49.500
0.684,0.240,0.618,12.451,-37.659,-29.114
0.733,0.460,0.673,8.118,-32.227,-3.967
0.749,0.686,0.591,0.488,-17.944,11.047
0.752,0.766,0.376,-9.399,-2.136,12.146
0.728,0.802,0.169,-18.921,4.944,9.460
0.693,0.847,-0.021,-23.254,4.700,8.484
0.691,0.887,-0.136,-20.447,-5.188,7.141
0.668,0.941,0.036,-17.578,-31.128,2.563
0.676,0.914,0.308,-27.527,-56.458,-6.409
0.649,0.810,0.558,-28.259,-67.505,-16.541
0.646,0.723,0.663,-28.198,-60.486,-20.081
0.650,0.755,0.654,-17.822,-47.180,-13.428
0.638,0.874,0.590,-12.085,-36.682,-5.005
0.654,0.962,0.536,-10.559,-29.846,-4.089
0.676,1.010,0.532,-10.315,-25.085,-10.315
0.698,0.987,0.465,-5.554,-17.151,-22.217
0.680,0.865,0.381,6.042,-11.047,-35.889
0.639,0.694,0.155,18.921,-5.371,-44.434
0.596,0.552,0.023,25.391,-8.728,-44.312
0.604,0.470,0.127,10.376,-28.076,-37.048
0.638,0.578,0.491,-13.550,-52.795,-21.179
0.680,0.732,0.722,-21.851,-53.833,-6.714
0.714,0.797,0.647,-16.968,-31.067,-2.380
0.662,0.870,0.453,-10.620,-12.512,0.732
0.694,0.952,0.401,-12.390,-11.780,0.427
0.679,0.990,0.453,-2.258,-17.151,-4.089
0.735,1.022,0.519,1.709,-18.127,-12.756
0.727,0.965,0.479,12.268,-10.925,-24.475
0.645,0.892,0.247,30.762,0.366,-32.166
0.644,0.751,-0.079,39.307,7.935,-39.490

2.348,0.818,-0.171,-47.729,64.087,132.629
2.577,1.344,-0.169,-87.769,51.453,166.016
2.816,1.971,0.221,-106.750,28.442,180.176
3.146,2.528,0.744,-65.369,11.536,160.706
3.446,2.648,1.070,21.423,21.362,89.417
3.464,2.021,0.722,123.962,74.707,-27.771
3.260,0.956,-1.183,203.857,165.100,-131.042
2.938,-0.182,-3.745,195.740,225.830,-191.528
2.451,-1.180,-4.000,75.806,169.495,-193.848
1.834,-1.684,-4.000,-63.965,37.659,-142.578
0.952,-1.984,-4.000,-139.526,-79.834,-72.937
-0.256,-2.869,-4.000,-144.775,-173.035,-26.733
-1.778,-3.539,-3.530,-103.333,-274.536,37.598
-3.627,-1.931,-1.082,-33.813,-395.996,186.157
-4.000,1.372,1.799,63.538,-498.474,352.966
-4.000,3.401,3.496,142.700,-480.225,348.938
-4.000,1.613,1.494,106.934,-304.504,134.277
-4.000,-1.209,-0.423,-66.956,-233.765,-11.536
-4.000,-1.523,3.234,-290.771,-469.116,121.643
-4.000,3.074,4.000,-457.458,-767.944,469.055
-4.000,4.000,4.000,-437.256,-671.692,753.906
-3.555,4.000,4.000,-257.996,-178.040,690.063
-3.858,4.000,4.000,14.221,354.431,45.654
-4.000,1.293,1.362,97.900,752.930,-810.120
-4.000,-4.000,-3.524,5.432,930.237,-1204.834
-3.764,-4.000,-4.000,-66.162,739.868,-1030.151
-2.132,-4.000,-4.000,-104.370,493.530,-475.647
-1.281,-3.318,-4.000,-45.044,199.768,44.739
-0.574,-0.830,-2.528,9.094,-35.339,277.344
-0.042,0.386,-1.053,41.443,-106.079,301.392
0.132,0.831,-0.566,8.301,-62.256,264.038
0.102,0.904,-0.771,-25.574,1.526,208.130
0.093,1.180,-0.747,-27.893,8.545,181.580
0.116,1.660,-0.368,-2.380,-23.743,179.016
0.161,2.048,-0.026,26.672,-39.063,154.236
0.185,1.992,0.155,41.504,-27.893,87.097
0.163,1.543,0.184,46.753,-10.803,17.761
0.130,1.138,0.155,50.964,2.014,-19.287
0.139,0.979,0.275,54.993,2.991,-27.344
0.116,0.859,0.463,57.251,1.770,-30.151
0.074,0.649,0.527,56.213,10.193,-35.461
0.012,0.447,0.482,56.763,23.560,-33.447
0.003,0.395,0.422,58.105,30.273,-20.142
0.040,0.543,0.388,56.946,29.724,-1.038
0.077,0.736,0.398,53.406,26.306,13.000
0.151,0.959,0.406,56.030,22.827,18.677
0.207,1.164,0.422,57.495,21.545,15.686
0.248,1.259,0.455,54.382,21.484,2.808
0.259,1.191,0.406,50.293,26.367,-18.005
0.268,1.032,0.293,45.288,33.691,-37.354
0.254,0.913,0.297,35.706,32.471,-47.302
0.250,0.771,0.308,27.832,30.518,-51.758
0.249,0.612,0.303,23.621,31.433,-51.819
0.269,0.469,0.317,22.156,30.884,-45.410
0.290,0.390,0.382,27.710,28.137,-33.691
0.303,0.396,0.427,35.095,27.710,-17.822
0.322,0.503,0.434,43.579,28.503,-1.282
0.357,0.721,0.390,49.194,29.846,13.184
0.391,0.970,0.376,47.119,29.541,20.447
0.415,1.132,0.405,42.419,26.855,14.893
0.443,1.158,0.394,37.659,27.344,-0.305
0.418,1.003,0.384,31.860,27.893,-19.592
0.397,0.832,0.388,23.010,25.757,-32.166
0.423,0.765,0.401,13.611,22.461,-31.616
0.485,0.777,0.427,6.104,18.677,-25.024
0.536,0.805,0.459,0.305,15.747,-20.203
0.569,0.813,0.410,-3.479,17.639,-18.738
0.576,0.770,0.346,-3.784,20.264,-19.653
0.544,0.671,0.334,-5.493,19.043,-21.667
0.520,0.585,0.393,-4.272,13.794,-21.240
0.497,0.588,0.465,2.991,8.972,-15.259
0.455,0.596,0.413,8.118,12.024,-9.766
0.456,0.612,0.313,6.653,15.503,-4.944
0.493,0.758,0.343,3.235,8.789,3.662
0.588,0.959,0.390,3.418,2.991,11.047
0.670,1.113,0.390,3.967,3.357,9.094
0.723,1.146,0.315,3.845,7.996,-1.770
0.711,1.023,0.248,3.296,9.583,-17.822
0.698,0.805,0.301,1.648,4.272,-32.166
0.664,0.623,0.426,-0.671,-1.648,-37.231
0.612,0.510,0.492,-0.183,-1.343,-34.790
0.593,0.457,0.512,7.141,0.793,-28.992
0.618,0.411,0.482,13.611,3.296,-21.973
0.568,0.440,0.437,15.259,5.066,-10.620
0.627,0.628,0.383,16.968,4.639,4.028
0.643,0.821,0.307,12.390,3.662,13.367
0.658,0.977,0.232,-7.812,0.793,14.465
0.685,1.039,0.187,-23.560,-4.517,7.202
0.688,1.074,0.227,-33.630,-12.085,-2.747
0.669,1.070,0.286,-36.621,-16.541,-13.184
0.647,0.898,0.373,-35.034,-18.616,-28.931
0.623,0.658,0.488,-30.701,-19.409,-40.588
0.605,0.489,0.544,-29.846,-15.808,-40.405
0.607,0.457,0.560,-26.794,-11.475,-29.968
0.607,0.501,0.560,-24.658,-7.385,-17.273
0.618,0.607,0.471,-23.193,-1.648,-7.080
0.617,0.735,0.324,-19.043,2.747,-1.526
0.621,0.854,0.190,-13.977,2.625,-0.122
0.619,0.896,0.101,-9.216,-2.441,-4.028
0.628,0.859,0.155,-5.066,-14.221,-12.329
0.642,0.795,0.312,-1.404,-26.672,-19.653
0.631,0.691,0.447,-0.427,-30.396,-25.452
0.609,0.569,0.508,-0.427,-27.588,-27.649
0.589,0.501,0.543,-3.906,-23.193,-23.865
0.596,0.521,0.609,-11.169,-20.569,-14.648
0.606,0.603,0.674,-19.775,-17.029,-5.310
0.603,0.705,0.652,-31.433,-7.812,1.770
0.611,0.808,0.559,-40.894,3.479,5.798
0.593,0.899,0.397,-46.997,13.855,6.348
0.563,0.943,0.096,-46.448,24.719,3.479
0.516,0.997,-0.126,-38.391,22.644,-1.282
0.522,1.110,-0.115,-34.119,2.808,-7.141
0.546,1.081,0.057,-19.226,-20.508,-24.841
0.562,0.832,0.157,-1.160,-31.189,-48.340
0.592,0.610,0.136,21.729,-32.654,-59.814
0.614,0.495,0.190,41.992,-38.330,-58.044
0.619,0.443,0.269,57.068,-45.715,-50.781
0.631,0.432,0.383,63.293,-51.392,-41.992
0.658,0.487,0.568,61.218,-56.030,-32.104

1.504,1.199,0.693,-5.676,18.372,54.565
1.646,1.332,0.713,4.578,29.785,44.983
1.799,1.369,0.702,15.076,42.175,30.090
2.057,1.290,0.758,26.550,51.086,14.709
2.224,1.200,0.873,32.410,58.655,6.042
2.499,1.253,1.067,37.109,67.383,5.676
2.571,1.492,1.291,34.790,79.834,7.141
2.504,1.523,1.156,28.931,111.877,-12.390
2.460,1.134,0.653,24.475,148.437,-55.176
2.466,0.427,0.060,16.235,168.884,-96.802
2.512,-0.378,-0.679,-0.793,178.345,-118.958
2.578,-0.947,-1.560,-31.006,175.659,-109.985
2.538,-1.317,-2.371,-84.229,151.794,-77.881
2.342,-1.713,-3.152,-117.126,111.023,-47.180
2.045,-1.940,-3.795,-112.000,57.800,-11.414
1.308,-2.152,-4.000,-74.585,-10.376,22.278
0.287,-2.617,-4.000,-42.603,-81.299,52.063
-0.946,-3.068,-3.980,-38.025,-174.438,102.234
-2.393,-2.589,-2.518,-55.908,-278.687,202.637
-3.937,-0.585,-1.431,-69.153,-334.412,339.417
-4.000,1.502,-0.876,-72.571,-351.685,435.303
-4.000,2.718,-0.104,-69.336,-387.878,432.251
-4.000,2.366,0.747,-75.623,-434.265,349.915
-4.000,1.778,2.155,-101.196,-485.107,301.086
-4.000,3.374,4.000,-124.451,-555.725,387.146
-4.000,4.000,4.000,-88.928,-633.484,524.292
-3.560,4.000,4.000,73.914,-623.962,545.349
-2.583,4.000,4.000,303.650,-275.574,196.960
-4.000,3.180,4.000,332.214,453.430,-549.500
-4.000,-4.000,-2.318,93.750,1066.895,-1085.510
-3.698,-4.000,-4.000,-156.555,971.558,-959.961
-2.320,-4.000,-4.000,-250.854,521.667,-320.190
-1.297,-2.312,-4.000,-227.417,292.114,166.077
-0.781,-0.252,-4.000,-147.766,156.616,261.597
-0.553,0.108,-3.507,-34.790,14.343,196.167
-0.352,0.299,-2.163,29.602,-96.191,164.551
-0.336,0.746,-1.034,55.908,-157.288,176.697
-0.218,1.474,-0.092,75.500,-190.369,197.815
-0.101,2.270,0.778,107.544,-207.825,191.711
0.042,2.539,1.392,133.911,-192.627,119.080
0.116,1.990,1.786,115.845,-152.832,13.733
0.119,1.036,1.896,69.519,-98.328,-67.261
0.053,0.434,1.673,23.560,-37.292,-86.060
0.065,0.299,1.234,-6.958,14.282,-62.561
0.073,0.416,1.016,-23.132,37.598,-34.363
0.100,0.529,0.911,-24.048,46.326,-18.982
0.086,0.578,0.792,-20.447,56.213,-11.841
0.041,0.643,0.635,-13.428,65.430,-5.127
0.028,0.727,0.415,-6.775,72.510,2.136
0.030,0.918,0.310,-3.845,70.618,11.108
0.028,1.072,0.308,-0.671,61.279,13.428
0.042,1.107,0.314,4.272,53.772,5.249
0.041,1.046,0.365,12.573,47.241,-6.592
0.054,1.035,0.443,24.597,41.931,-17.334
0.104,0.912,0.447,33.997,42.847,-32.532
0.080,0.669,0.415,43.335,46.631,-47.302
0.093,0.475,0.380,46.448,47.546,-48.340
0.084,0.435,0.398,42.542,45.593,-34.546
0.142,0.518,0.460,35.156,43.518,-15.381
0.201,0.630,0.522,32.104,42.786,-1.282
0.218,0.756,0.540,27.100,47.241,7.385
0.240,0.862,0.471,29.907,56.274,13.550
0.285,1.058,0.359,37.903,64.575,17.334
0.298,1.185,0.339,39.551,64.819,10.742
0.291,1.188,0.318,39.734,62.256,-5.981
0.322,1.028,0.250,41.077,60.669,-25.696
0.343,0.819,0.212,44.250,55.542,-38.574
0.318,0.680,0.203,53.833,44.678,-39.063
0.359,0.601,0.229,60.303,31.311,-31.677
0.530,0.729,0.332,63.293,19.043,-23.743
0.422,0.522,0.513,50.903,10.315,-27.405
0.495,0.477,0.325,82.581,15.015,-25.818
0.537,0.448,0.298,56.946,17.639,-7.874
0.547,0.412,0.422,61.401,3.113,-1.404
0.528,0.592,0.586,44.983,-2.991,14.771
0.493,0.698,0.617,26.489,5.371,20.996
0.500,0.818,0.545,10.315,18.921,21.423
0.494,0.919,0.471,-2.930,26.184,20.020
0.500,0.968,0.427,-9.155,26.367,14.038
0.519,0.943,0.361,-9.277,24.780,6.470
0.560,0.878,0.308,-6.958,22.095,0.000
0.590,0.787,0.340,-2.808,15.137,-2.380
0.576,0.762,0.446,-1.343,9.766,-1.282
0.602,0.672,0.405,15.930,12.207,-2.075
0.565,0.615,0.403,21.790,11.841,-1.038
0.573,0.602,0.485,22.766,6.348,2.686
0.591,0.587,0.574,19.531,4.395,4.639
0.603,0.593,0.625,11.963,8.057,6.836
0.596,0.657,0.605,4.456,15.015,10.742
0.593,0.849,0.481,1.099,23.682,18.005
0.574,1.052,0.350,-3.479,27.405,20.996
0.558,1.149,0.202,-8.606,26.794,13.000
0.544,1.117,0.177,-13.428,18.555,-1.343
0.557,1.013,0.333,-17.395,3.540,-15.015
0.568,0.854,0.402,-18.677,-0.122,-25.696
0.566,0.707,0.367,-16.724,3.845,-30.457
0.553,0.587,0.368,-11.963,3.235,-29.785
0.554,0.487,0.390,-7.690,0.305,-25.635
0.571,0.455,0.452,-6.226,-2.502,-16.541
0.590,0.497,0.524,-2.197,-4.089,-4.883
0.614,0.680,0.505,3.052,-1.404,7.080
0.641,0.816,0.459,-1.587,2.380,11.414
0.632,0.861,0.392,-3.296,4.761,7.385
0.604,0.912,0.266,-5.371,7.141,3.967
0.592,0.955,0.207,-7.019,3.113,0.977
0.590,0.937,0.336,-14.221,-8.362,-4.089
0.576,0.919,0.451,-24.231,-14.343,-9.155
0.547,0.909,0.405,-32.227,-8.728,-13.306
0.517,0.829,0.359,-36.377,-6.104,-18.982
0.523,0.722,0.432,-36.194,-11.108,-23.132
0.552,0.620,0.553,-28.809,-16.418,-23.193
0.581,0.576,0.575,-20.264,-12.085,-18.250
0.613,0.567,0.505,-13.550,-3.906,-11.292
0.621,0.606,0.415,-4.456,0.610,-4.028
0.622,0.673,0.285,0.427,3.967,2.686
0.609,0.750,0.208,0.854,3.296,8.301
0.605,0.873,0.230,-0.488,-3.723,12.573
0.594,1.002,0.261,-2.075,-8.179,13.000
0.564,1.096,0.276,-7.629,-8.667,7.874

1.301,0.992,0.374,19.348,30.945,17.578
1.443,1.005,0.323,15.381,35.339,24.597
1.606,1.073,0.267,8.240,39.429,34.241
1.838,1.217,0.255,0.000,42.053,46.875
2.129,1.411,0.326,-8.728,42.236,58.472
2.478,1.609,0.434,-17.029,42.358,64.026
2.879,1.625,0.494,-23.376,47.913,55.847
3.075,1.545,0.741,-28.503,48.889,39.063
3.111,1.560,1.055,-29.968,49.133,25.879
3.130,1.610,0.995,-20.203,73.853,8.240
3.153,1.476,0.178,-8.423,124.878,-22.705
3.134,1.167,-1.076,4.700,167.603,-61.829
3.015,0.669,-2.557,-3.418,182.861,-99.426
2.611,-0.007,-4.000,-41.809,172.852,-129.639
1.825,-0.952,-4.000,-106.750,113.037,-139.282
0.673,-2.129,-4.000,-163.025,-31.555,-120.117
-0.634,-2.986,-4.000,-150.208,-213.440,-55.359
-2.125,-3.076,-2.451,-103.516,-349.792,48.523
-3.808,-1.620,-0.465,-65.186,-419.434,191.589
-4.000,0.665,1.154,-27.100,-429.321,315.247
-4.000,1.434,1.410,14.221,-371.582,294.067
-4.000,-1.015,-0.098,1.892,-307.678,154.480
-4.000,-2.880,1.793,-82.031,-440.247,169.312
-4.000,0.466,4.000,-206.421,-777.954,530.762
-4.000,4.000,4.000,-326.965,-920.654,1067.993
-4.000,4.000,4.000,-313.110,-608.398,1477.600
-4.000,4.000,4.000,-42.664,266.418,936.218
-4.000,3.997,0.863,-173.706,1239.929,-614.319
-4.000,-3.374,-4.000,-388.245,1375.427,-1758.667
-4.000,-4.000,-4.000,-525.513,851.501,-1958.191
-3.962,-4.000,-4.000,-557.739,312.561,-1415.344
-2.060,-4.000,-2.229,-291.138,35.217,-431.641
-1.317,-2.852,-1.335,-12.451,-4.089,305.298
-0.710,-0.013,-1.563,70.740,61.462,531.982
-0.287,1.298,-1.853,73.792,106.812,505.310
-0.108,1.681,-2.016,57.007,92.468,357.483
0.121,1.679,-1.627,64.209,20.996,218.079
0.215,1.681,-0.810,80.994,-54.382,133.972
0.175,1.572,-0.263,89.783,-77.271,75.256
0.105,1.270,-0.125,78.552,-52.856,20.630
0.045,0.994,-0.153,57.251,-25.879,-10.010
0.030,0.992,-0.085,51.880,-20.691,-11.536
0.049,1.109,0.097,60.913,-27.771,-6.409
0.050,1.166,0.316,67.993,-31.860,-11.292
0.026,1.129,0.406,72.388,-22.644,-24.414
0.033,0.930,0.310,70.557,-3.235,-41.992
0.052,0.615,0.224,63.232,8.606,-54.871
0.088,0.460,0.228,55.420,8.911,-50.659
0.125,0.526,0.205,43.884,10.498,-32.410
0.156,0.622,0.190,31.799,12.756,-16.846
0.164,0.650,0.206,20.569,11.414,-9.277
0.167,0.667,0.227,7.080,11.169,-2.441
0.205,0.817,0.214,3.845,12.451,9.033
0.203,1.102,0.241,-0.366,12.268,24.536
0.216,1.274,0.201,-1.709,14.648,24.902
0.250,1.289,0.143,-2.014,18.311,7.202
0.264,1.068,0.102,6.958,16.907,-23.071
0.308,0.757,0.113,9.033,13.062,-44.373
0.317,0.643,0.162,13.672,8.911,-41.382
0.335,0.690,0.180,21.301,7.996,-27.771
0.347,0.674,0.179,28.687,9.216,-19.592
0.354,0.594,0.202,25.757,8.362,-14.893
0.350,0.597,0.216,27.832,6.897,-4.028
0.352,0.671,0.243,24.292,6.470,11.719
0.376,0.746,0.250,31.555,6.042,25.146
0.398,0.825,0.309,35.889,4.272,39.612
0.384,0.887,0.262,57.068,5.920,53.040
0.380,0.984,0.172,44.861,10.498,68.176
0.378,1.148,0.146,23.132,8.240,77.942
0.385,1.238,0.183,12.451,-0.549,73.547
0.399,1.301,0.280,10.620,-7.874,53.589
0.398,1.184,0.324,1.831,-6.470,18.616
0.374,0.918,0.375,-7.141,-1.099,-12.451
0.340,0.694,0.406,-6.104,2.502,-21.484
0.293,0.656,0.432,-2.014,6.836,-8.667
0.276,0.792,0.432,2.747,12.939,13.611
0.291,0.875,0.440,20.935,19.287,30.762
0.329,0.974,0.351,47.180,28.809,40.222
0.394,1.010,0.212,35.706,41.992,46.082
0.420,1.007,0.133,40.100,45.837,38.269
0.413,0.926,0.141,27.100,38.635,24.963
0.401,0.772,0.201,17.212,30.457,9.888
0.379,0.578,0.277,2.991,24.780,0.793
0.413,0.621,0.307,17.395,20.996,10.925
0.390,0.716,0.369,16.418,18.250,29.114
0.323,0.838,0.367,1.709,21.729,43.701
0.320,0.941,0.337,19.958,29.541,56.152
0.430,1.009,0.234,15.747,39.612,61.646
0.408,1.095,0.065,17.456,50.354,60.120
0.397,1.168,-0.105,9.705,53.345,53.101
0.383,1.229,-0.225,6.165,41.443,40.283
0.377,1.223,-0.212,1.831,15.198,18.188
0.367,1.097,0.005,-1.648,-15.564,-6.042
0.369,0.896,0.232,5.432,-36.377,-22.766
0.355,0.860,0.347,0.977,-37.659,-21.362
0.366,0.886,0.379,-1.038,-28.931,-12.268
0.376,0.939,0.370,14.404,-20.325,-5.981
0.378,0.978,0.325,26.367,-12.207,-4.028
0.383,0.971,0.242,28.564,-6.470,-9.277
0.404,0.901,0.186,21.606,-7.080,-18.982
0.393,0.839,0.195,14.465,-13.489,-24.414
0.402,0.841,0.201,8.118,-19.653,-23.560
0.438,0.875,0.232,0.366,-26.184,-21.118
0.452,0.894,0.279,-5.737,-31.250,-20.630
0.407,0.892,0.273,-12.146,-29.602,-19.897
0.437,0.895,0.260,-26.306,-24.963,-17.822
0.507,0.914,0.212,-28.992,-24.048,-14.893
0.452,0.915,0.215,-24.353,-25.940,-17.151
0.431,0.882,0.268,-28.870,-34.363,-21.423
0.450,0.843,0.363,-23.437,-41.260,-24.353
0.483,0.802,0.437,-17.334,-41.809,-26.794
0.477,0.749,0.458,-13.550,-35.278,-29.968
0.522,0.679,0.415,-10.559,-24.597,-30.945
0.489,0.616,0.328,-5.432,-13.428,-28.625
0.512,0.598,0.240,3.784,-7.324,-17.029
0.482,0.653,0.169,13.062,-6.104,0.366
0.447,0.824,0.086,27.588,-6.775,21.729
0.459,1.009,0.059,34.668,-12.268,37.842
0.473,1.133,0.118,30.334,-24.719,38.940

1.388,1.528,0.387,-47.546,6.470,36.926
1.563,1.725,0.490,-44.556,8.606,29.663
1.763,1.778,0.569,-39.001,15.198,14.343
1.985,1.792,0.594,-35.767,26.428,0.854
2.259,1.886,0.505,-32.654,42.480,-3.357
2.528,2.141,0.527,-21.973,52.002,-2.686
2.748,2.470,0.835,0.000,50.110,-8.179
2.975,2.601,1.211,53.223,52.307,-38.818
3.082,2.159,1.003,112.915,96.313,-106.445
3.007,1.257,-0.065,115.051,171.082,-184.570
2.784,0.232,-1.469,33.813,224.731,-240.723
2.474,-0.921,-2.770,-90.454,221.436,-271.973
2.086,-2.078,-3.498,-164.246,148.682,-266.479
1.334,-3.166,-3.476,-152.161,34.790,-228.516
0.349,-3.979,-3.072,-94.177,-64.758,-153.992
-0.879,-3.967,-2.654,-13.123,-140.076,-15.991
-2.258,-2.363,-1.759,29.480,-208.862,166.199
-3.635,-0.023,-0.305,69.702,-288.086,307.495
-4.000,1.330,0.286,106.262,-317.627,333.252
-4.000,0.866,-0.048,41.016,-297.180,264.832
-4.000,0.016,1.032,-68.115,-358.826,246.460
-4.000,1.075,3.210,-172.302,-468.018,367.798
-4.000,3.905,4.000,-240.051,-515.991,583.252
-4.000,4.000,4.000,-217.834,-487.976,766.907
-3.981,4.000,4.000,-19.531,-450.195,744.263
-3.031,4.000,4.000,292.358,-212.524,219.543
-4.000,2.226,4.000,275.146,468.628,-636.475
-4.000,-3.724,-1.944,-1.465,1076.538,-1165.466
-4.000,-4.000,-4.000,-480.652,1068.542,-1140.930
-2.504,-4.000,-4.000,-606.323,581.421,-697.205
-1.396,-4.000,-3.845,-253.357,165.588,-103.088
-0.776,-1.294,-2.220,-80.200,3.174,326.050
-0.313,0.908,-2.016,-16.724,8.179,397.156
-0.161,1.470,-2.318,2.441,28.076,299.805
-0.095,1.227,-2.180,28.625,-6.714,175.903
0.042,1.350,-1.136,71.960,-90.820,125.183
0.072,1.784,-0.053,114.197,-152.710,122.314
0.097,2.017,0.598,119.385,-144.836,91.919
0.114,1.763,0.791,83.740,-92.651,27.832
0.094,1.240,0.678,45.593,-41.748,-25.024
0.063,0.865,0.484,23.071,-10.864,-45.105
0.076,0.657,0.451,6.287,0.916,-44.067
0.070,0.520,0.548,-5.493,5.798,-37.415
0.041,0.471,0.476,-9.216,20.142,-26.855
0.016,0.536,0.190,-4.883,37.842,-13.367
0.034,0.671,0.047,3.723,40.588,-1.282
0.038,0.787,0.078,10.559,32.166,7.263
0.066,0.898,0.047,2.441,31.555,14.099
0.077,0.970,-0.056,-5.676,33.813,18.799
0.074,0.949,-0.084,-12.939,29.846,20.020
0.096,0.938,0.047,-14.038,18.982,20.142
0.094,0.990,0.199,-11.047,12.329,21.362
0.053,1.027,0.203,-6.836,17.273,19.775
0.017,1.067,0.186,-0.610,23.132,16.113
-0.003,1.050,0.254,8.667,22.217,10.864
-0.021,1.063,0.316,16.602,23.193,7.324
-0.016,1.167,0.353,25.146,27.588,7.996
-0.018,1.275,0.317,32.104,34.241,5.554
0.017,1.275,0.134,31.738,43.762,-4.700
0.061,1.177,0.007,27.344,45.593,-18.005
0.106,1.044,0.016,24.414,37.659,-28.381
0.122,0.872,0.052,19.043,31.738,-35.645
0.127,0.684,0.068,11.597,29.053,-37.964
0.153,0.583,0.047,6.165,28.809,-31.921
0.163,0.579,0.072,5.371,26.123,-19.409
0.143,0.553,0.094,6.287,22.949,-8.728
0.164,0.561,0.070,12.756,21.790,3.235
0.193,0.703,0.148,21.729,16.724,20.813
0.246,0.965,0.291,39.246,10.620,36.438
0.302,1.227,0.379,58.228,11.536,42.175
0.331,1.413,0.405,72.571,18.921,34.668
0.352,1.400,0.361,76.111,29.541,11.963
0.344,1.209,0.273,63.904,40.344,-14.343
0.298,1.018,0.201,41.565,45.959,-27.893
0.250,0.918,0.091,17.883,49.316,-28.870
0.231,0.881,0.031,-2.502,47.852,-26.001
0.222,0.833,0.073,-11.292,38.879,-24.292
0.255,0.741,0.110,-6.958,32.043,-23.315
0.311,0.718,0.102,10.376,27.100,-17.761
0.371,0.791,0.033,35.278,22.095,-7.507
0.413,0.876,0.020,53.467,14.526,0.427
0.430,0.877,0.062,57.800,5.798,4.456
0.435,0.933,0.182,57.312,-0.488,9.888
0.430,1.133,0.283,61.890,-2.258,18.188
0.412,1.334,0.293,73.364,3.174,16.907
0.387,1.300,0.197,76.050,11.902,-3.174
0.377,0.978,0.106,66.162,16.174,-33.142
0.386,0.714,0.137,50.049,10.193,-45.227
0.425,0.623,0.212,36.804,2.930,-37.415
0.479,0.665,0.294,24.597,-0.244,-23.071
0.516,0.766,0.331,21.912,-0.549,-11.353
0.517,0.844,0.216,20.691,4.700,-5.615
0.483,0.842,0.056,17.822,7.874,-5.798
0.466,0.823,0.081,20.447,-1.526,-8.118
0.505,0.862,0.279,31.921,-17.273,-8.667
0.503,0.903,0.385,43.396,-21.362,-9.338
0.525,0.949,0.341,45.288,-12.634,-14.160
0.546,0.914,0.258,49.377,-6.042,-24.292
0.569,0.779,0.193,45.044,-5.798,-35.217
0.601,0.626,0.204,31.433,-10.071,-39.368
0.569,0.611,0.326,18.677,-17.273,-30.823
0.612,0.718,0.292,20.020,-19.653,-14.587
0.589,0.880,0.292,-0.549,-16.785,-3.845
0.583,0.981,0.272,4.089,-17.883,-1.648
0.568,1.040,0.266,9.705,-20.569,-4.089
0.556,1.094,0.289,20.386,-23.499,-10.376
0.549,1.060,0.339,33.142,-26.917,-22.888
0.530,0.924,0.374,44.922,-27.161,-39.551
0.514,0.745,0.345,50.964,-23.743,-51.147
0.513,0.546,0.324,47.119,-22.095,-55.908
0.541,0.399,0.353,37.781,-24.170,-52.002
0.579,0.401,0.397,26.306,-25.513,-38.513
0.608,0.484,0.361,17.578,-21.973,-23.376
0.635,0.577,0.274,4.211,-18.127,-11.902
0.631,0.652,0.213,-8.606,-18.555,-4.272
0.611,0.730,0.225,-16.113,-23.743,1.465
0.612,0.878,0.326,-17.761,-31.189,8.301
0.609,1.037,0.430,-4.639,-36.316,10.376
0.595,1.099,0.501,10.925,-36.560,1.892

1.443,1.481,0.420,34.302,32.471,80.261
1.622,1.809,0.426,36.682,32.654,74.951
1.838,1.949,0.531,34.912,31.189,53.955
2.063,1.828,0.729,33.203,30.823,24.231
2.275,1.613,0.985,30.884,34.363,-0.977
2.440,1.490,1.151,28.809,49.683,-12.634
2.564,1.414,1.172,15.442,78.918,-17.334
2.693,1.253,0.939,1.160,113.525,-27.710
2.975,1.144,0.529,-0.610,141.296,-37.842
3.160,1.093,0.005,1.648,161.743,-42.114
3.188,0.913,-1.155,-9.460,197.815,-54.138
3.029,0.320,-3.104,-44.189,243.652,-77.332
2.708,-0.520,-4.000,-97.290,229.919,-87.402
2.102,-1.114,-4.000,-133.728,102.539,-54.199
1.365,-0.724,-4.000,-155.640,-66.040,26.917
0.490,0.441,-3.517,-164.795,-200.806,99.426
-0.603,1.173,-2.254,-147.278,-288.452,96.741
-2.069,0.236,-1.002,-124.695,-331.238,14.160
-3.512,-1.057,0.451,-107.849,-352.783,-46.997
-4.000,-1.314,1.645,-85.327,-354.370,-0.732
-4.000,-1.549,0.781,-88.318,-294.250,82.336
-4.000,-2.019,0.581,-140.198,-287.964,180.298
-4.000,-0.424,3.444,-185.120,-426.208,373.230
-4.000,3.646,4.000,-195.740,-518.921,627.991
-4.000,4.000,4.000,-142.456,-490.906,781.128
-3.539,4.000,4.000,1.160,-404.236,728.088
-2.433,4.000,4.000,165.222,-98.999,319.336
-4.000,3.250,3.797,107.483,489.502,-483.215
-4.000,-4.000,-2.947,-148.865,991.028,-1043.579
-3.890,-4.000,-4.000,-315.735,922.791,-914.429
-2.231,-4.000,-4.000,-213.745,410.217,-297.302
-0.922,-2.102,-3.826,-85.876,8.911,148.926
-0.314,-0.575,-1.710,10.132,-102.539,206.909
-0.170,0.002,-1.229,52.124,-62.500,153.381
-0.234,0.555,-1.589,60.425,-12.695,133.118
-0.189,1.008,-1.270,65.491,-33.508,119.324
-0.123,1.254,-0.330,80.627,-96.619,103.027
-0.059,1.284,0.397,88.196,-121.460,72.266
-0.008,1.296,0.734,72.876,-100.342,39.185
-0.004,1.333,0.821,44.922,-68.054,17.822
-0.010,1.261,0.732,20.691,-39.978,-0.916
0.004,1.004,0.603,5.066,-21.057,-21.179
0.035,0.693,0.576,-2.747,-12.085,-33.203
0.062,0.512,0.572,-4.089,-6.104,-31.189
0.086,0.501,0.453,-1.099,5.249,-19.043
0.097,0.551,0.307,2.441,15.442,-6.287
0.097,0.551,0.248,3.723,19.165,1.648
0.090,0.591,0.307,6.409,16.418,10.498
0.066,0.744,0.385,11.414,14.893,22.644
0.060,0.974,0.394,19.653,17.761,32.471
0.067,1.260,0.376,27.588,21.606,36.255
0.059,1.482,0.330,31.311,24.109,28.320
0.041,1.463,0.256,32.776,25.635,5.981
0.013,1.289,0.291,25.085,22.034,-17.883
0.049,1.165,0.375,21.484,16.174,-31.677
0.032,1.103,0.452,21.545,12.817,-37.292
0.027,0.952,0.483,16.968,15.808,-44.128
0.035,0.777,0.511,11.658,19.958,-47.363
0.028,0.666,0.531,6.897,24.597,-42.542
0.036,0.602,0.510,1.099,32.288,-32.654
0.045,0.576,0.453,-2.197,40.588,-20.935
0.072,0.574,0.385,3.174,45.898,-9.521
0.092,0.599,0.320,12.451,48.279,0.977
0.114,0.688,0.270,21.179,48.584,12.146
0.123,0.891,0.265,29.236,45.654,22.522
0.169,1.114,0.285,35.095,41.687,26.367
0.193,1.184,0.320,35.889,38.940,16.785
0.235,1.122,0.354,34.485,38.391,0.610
0.237,0.953,0.341,28.198,41.077,-12.817
0.208,0.792,0.275,17.944,44.556,-17.944
0.209,0.751,0.280,8.545,42.786,-12.207
0.195,0.756,0.401,3.235,35.828,-4.333
0.177,0.741,0.452,2.380,35.217,0.427
0.146,0.745,0.435,4.456,39.917,5.737
0.140,0.752,0.393,13.489,43.274,10.620
0.187,0.769,0.363,25.391,43.884,14.648
0.242,0.833,0.416,33.936,41.260,18.982
0.285,0.931,0.423,39.856,42.297,22.766
0.299,1.032,0.329,37.842,49.866,23.132
0.296,1.084,0.247,31.799,53.589,19.409
0.281,1.064,0.189,27.649,51.208,12.512
0.255,1.029,0.164,25.024,46.082,5.737
0.253,1.049,0.227,21.484,37.842,2.136
0.261,1.062,0.331,19.836,31.067,-1.648
0.272,1.024,0.366,18.494,31.250,-7.690
0.252,0.937,0.342,24.658,33.936,-14.404
0.247,0.792,0.193,28.687,37.842,-18.921
0.274,0.724,0.084,29.297,37.292,-16.235
0.311,0.800,0.185,29.419,25.696,-6.958
0.364,0.855,0.264,28.503,19.958,-2.686
0.408,0.846,0.267,27.771,22.156,-2.930
0.397,0.819,0.242,30.762,23.437,-4.028
0.405,0.847,0.230,32.654,21.667,-3.540
0.425,0.878,0.294,32.532,16.418,-3.357
0.436,0.898,0.386,28.137,12.939,-4.700
0.437,0.926,0.456,21.240,13.611,-6.470
0.447,0.978,0.373,18.066,19.958,-9.155
0.428,0.996,0.186,14.282,25.757,-14.038
0.423,0.935,0.046,6.042,24.353,-21.484
0.381,0.829,0.104,1.953,11.536,-26.489
0.447,0.777,0.217,7.385,-0.366,-27.893
0.457,0.663,0.277,14.465,-3.113,-30.396
0.493,0.532,0.416,15.015,-10.925,-30.518
0.524,0.457,0.445,20.508,-10.620,-24.292
0.548,0.530,0.433,24.292,-7.080,-9.888
0.554,0.716,0.432,27.893,-6.714,3.967
0.583,0.913,0.442,29.358,-7.141,11.047
0.578,1.130,0.473,28.015,-7.690,11.353
0.588,1.331,0.352,24.109,-2.869,4.700
0.556,1.469,0.145,17.639,2.991,-8.667
0.545,1.355,0.019,13.123,0.061,-33.142
0.517,0.973,0.113,8.301,-13.245,-61.401
0.505,0.605,0.241,3.662,-23.376,-74.646
0.496,0.363,0.323,-1.831,-25.757,-69.641
0.505,0.221,0.406,-6.409,-25.940,-54.932
0.526,0.234,0.484,-5.493,-25.757,-33.447
0.555,0.338,0.449,-3.845,-20.142,-11.597
0.577,0.584,0.387,-2.502,-14.526,8.301
0.584,0.924,0.361,0.122,-12.634,23.254

0.974,1.443,0.211,7.202,29.724,-5.920
1.093,1.085,0.213,10.620,27.222,-36.438
1.234,0.803,0.266,7.874,25.818,-47.791
1.362,0.762,0.320,0.916,28.687,-38.147
1.491,0.895,0.268,-9.644,37.476,-23.315
1.656,0.984,0.194,-21.606,45.044,-15.747
1.860,0.927,0.259,-31.555,44.556,-15.442
2.061,0.908,0.474,-37.170,41.199,-12.207
2.294,0.941,0.610,-35.156,46.753,-5.249
2.575,0.845,0.588,-29.724,62.195,-3.479
2.772,0.617,0.611,-23.376,74.036,-2.319
2.908,0.424,0.778,-11.841,79.468,8.118
2.927,0.375,0.794,5.615,91.125,26.550
2.890,0.588,0.093,18.188,128.296,45.288
2.845,1.059,-0.833,16.663,155.273,57.068
2.825,1.673,-1.582,-4.761,144.226,47.974
2.642,1.979,-2.123,-55.054,110.657,9.033
2.279,1.585,-2.364,-91.064,56.091,-66.772
1.752,0.827,-2.545,-71.167,-8.545,-141.846
1.062,-0.413,-2.758,-46.570,-59.326,-197.327
0.167,-2.105,-2.832,-41.626,-101.929,-223.877
-0.941,-3.475,-2.752,-49.316,-145.691,-180.969
-2.353,-3.691,-2.227,-48.584,-207.153,-45.959
-3.970,-2.759,-1.363,-36.133,-277.893,129.150
-4.000,-0.815,-0.426,-10.010,-346.436,286.377
-4.000,0.805,0.671,17.822,-421.692,373.413
-4.000,0.767,2.323,-5.859,-492.310,346.375
-4.000,0.382,4.000,-105.347,-546.692,323.303
-4.000,2.887,4.000,-227.722,-579.102,478.088
-4.000,4.000,4.000,-241.028,-480.103,727.234
-3.591,4.000,4.000,-48.950,-297.119,795.593
-2.921,4.000,4.000,181.946,69.519,229.492
-4.000,1.639,1.542,39.185,672.119,-802.246
-4.000,-4.000,-3.978,-380.920,1056.213,-1394.226
-3.964,-4.000,-4.000,-621.643,786.743,-1160.889
-2.646,-4.000,-4.000,-385.193,335.388,-361.145
-1.603,-2.675,-3.989,-53.162,-35.950,327.881
-0.752,0.758,-1.358,76.416,-233.337,521.484
-0.334,2.307,0.047,106.812,-236.023,462.219
-0.127,2.462,0.055,122.131,-142.883,297.974
0.066,2.350,0.427,127.319,-116.211,172.485
0.155,2.458,1.212,144.470,-143.982,113.037
0.239,2.378,1.713,110.107,-130.127,59.509
0.221,1.863,1.695,37.842,-68.542,-5.859
0.136,1.026,1.113,-26.794,0.793,-60.059
0.140,0.511,0.605,-61.401,38.147,-73.792
0.163,0.449,0.500,-62.195,38.574,-56.580
0.148,0.367,0.363,-50.781,41.748,-43.762
0.110,0.196,0.114,-39.734,52.917,-37.476
0.077,0.370,0.033,-31.128,52.734,-13.733
0.080,0.908,0.127,-20.569,44.006,19.775
0.088,1.314,0.275,-10.742,37.842,32.715
0.078,1.446,0.343,-6.653,39.490,22.400
0.057,1.432,0.277,-4.272,46.631,4.883
0.041,1.353,0.187,-2.075,50.659,-10.864
0.020,1.259,0.173,1.160,46.997,-24.597
0.028,1.162,0.100,6.592,42.419,-35.034
0.052,1.013,0.139,12.451,34.546,-43.518
0.049,0.910,0.281,15.259,24.353,-48.035
0.091,0.803,0.325,15.625,26.428,-48.584
0.074,0.701,0.331,21.790,31.860,-46.753
0.067,0.587,0.258,31.250,37.964,-42.969
0.108,0.516,0.214,40.344,41.687,-34.363
0.133,0.487,0.293,47.668,39.001,-22.461
0.142,0.481,0.347,47.729,40.955,-10.315
0.145,0.682,0.321,42.297,49.561,5.981
0.149,1.017,0.163,39.734,59.937,21.851
0.157,1.247,0.024,32.349,64.880,20.081
0.188,1.309,-0.012,22.400,60.242,3.906
0.237,1.205,0.026,14.404,52.551,-17.578
0.275,1.057,0.089,9.460,46.692,-34.729
0.319,0.883,0.088,10.010,45.593,-44.312
0.323,0.663,0.114,9.033,44.983,-49.194
0.319,0.496,0.203,7.812,42.542,-46.021
0.330,0.476,0.268,9.644,42.847,-33.386
0.336,0.539,0.260,12.695,48.584,-19.104
0.332,0.576,0.235,17.761,52.856,-10.010
0.316,0.566,0.202,24.109,54.321,-4.150
0.337,0.595,0.143,31.616,54.321,4.883
0.399,0.813,0.189,37.720,48.950,21.057
0.412,1.121,0.147,37.903,48.218,33.630
0.431,1.379,-0.011,29.358,53.772,34.180
0.451,1.514,-0.046,20.386,48.340,20.020
0.424,1.382,0.037,16.296,36.255,-9.827
0.394,0.952,0.132,10.498,28.503,-42.969
0.384,0.622,0.213,2.808,26.367,-54.993
0.380,0.459,0.300,4.456,24.658,-48.096
0.366,0.333,0.363,13.123,25.269,-36.621
0.362,0.283,0.401,26.245,28.076,-21.057
0.387,0.454,0.414,47.119,30.640,0.183
0.412,0.739,0.370,67.810,34.790,18.799
0.428,0.952,0.196,76.660,43.701,23.987
0.454,1.127,-0.055,73.547,50.964,20.264
0.486,1.312,-0.157,65.735,44.312,12.268
0.485,1.345,-0.068,57.617,27.466,-5.310
0.436,1.079,0.001,43.030,17.700,-32.959
0.409,0.755,0.046,27.405,14.404,-51.453
0.436,0.604,0.197,26.001,4.578,-49.316
0.489,0.567,0.320,33.386,-2.563,-38.696
0.525,0.596,0.266,39.917,0.732,-27.527
0.556,0.629,0.090,43.884,5.981,-18.982
0.585,0.601,0.018,48.767,0.061,-14.832
0.595,0.513,0.127,51.819,-12.695,-11.841
0.594,0.545,0.302,53.833,-23.193,-4.150
0.613,0.740,0.370,57.434,-23.437,5.737
0.578,0.895,0.312,55.542,-17.395,7.019
0.550,0.872,0.252,48.035,-14.587,-2.502
0.651,0.819,0.338,39.246,-20.203,-8.972
0.580,0.895,0.525,28.931,-25.330,-8.362
0.619,0.958,0.454,25.269,-17.456,-7.568
0.651,1.073,0.381,11.230,-12.329,-10.071
0.698,1.161,0.318,7.874,-13.611,-15.076
0.726,1.009,0.301,3.174,-16.174,-30.579
0.715,0.705,0.342,1.770,-20.996,-44.983
0.717,0.506,0.352,4.822,-22.644,-45.776
0.681,0.433,0.365,10.132,-23.743,-35.950
0.665,0.403,0.369,10.132,-24.597,-24.658
0.656,0.420,0.397,5.737,-25.146,-12.573
0.631,0.465,0.376,-1.221,-23.193,-0.732

1.657,0.846,0.714,8.362,21.118,58.838
1.867,1.321,0.757,-8.728,32.166,81.421
2.058,1.748,0.754,-27.832,47.607,84.045
2.314,2.239,0.681,-41.260,63.965,74.402
2.542,2.465,0.673,-37.415,73.792,43.457
2.659,2.188,0.715,-17.639,79.285,-12.207
2.700,1.706,0.766,26.611,83.801,-64.331
2.684,1.178,0.909,88.440,83.008,-99.609
2.669,0.494,0.698,135.803,95.947,-127.319
2.591,-0.333,0.228,103.333,126.831,-145.081
2.503,-0.943,-0.073,-12.695,146.912,-132.874
2.436,-1.203,-0.675,-145.142,168.762,-96.191
2.174,-1.466,-1.972,-222.534,202.454,-62.866
1.667,-1.984,-3.766,-222.168,216.858,-37.964
0.920,-2.492,-4.000,-171.448,158.569,5.920
0.176,-2.045,-4.000,-91.492,9.521,98.267
-0.609,0.016,-3.454,-8.972,-167.908,219.360
-1.471,1.973,-2.213,16.418,-276.550,275.146
-2.315,2.888,-1.128,-59.875,-323.120,230.408
-3.202,2.401,0.142,-194.031,-350.403,127.747
-4.000,0.896,0.813,-295.898,-335.754,39.551
-4.000,-0.474,0.767,-331.177,-292.969,36.560
-4.000,-0.916,0.927,-293.945,-285.706,128.113
-4.000,0.235,1.916,-191.223,-334.351,281.799
-4.000,2.551,3.781,-63.477,-419.128,432.739
-3.436,4.000,4.000,58.777,-511.475,509.094
-2.155,4.000,4.000,181.335,-535.950,426.697
-1.186,4.000,4.000,232.605,-264.160,187.744
-1.730,3.847,4.000,146.301,274.109,-159.790
-2.880,-0.559,-0.250,-77.576,756.226,-486.755
-2.479,-4.000,-4.000,-300.232,870.789,-616.577
-1.743,-4.000,-4.000,-295.044,508.667,-420.654
-1.025,-3.228,-3.999,-123.352,64.697,-32.654
-0.417,-0.657,-1.623,11.353,-168.579,198.608
-0.117,0.422,-0.128,73.120,-195.129,218.262
-0.032,0.996,-0.057,82.947,-115.479,179.871
-0.046,1.456,-0.310,83.923,-62.195,150.879
-0.009,1.558,0.117,85.388,-79.773,115.723
0.093,1.579,0.973,72.449,-111.694,82.642
0.106,1.728,1.571,41.687,-100.952,59.204
0.077,1.641,1.535,0.183,-40.894,24.963
0.023,1.292,0.972,-29.846,23.865,-13.123
-0.002,0.974,0.390,-37.903,57.129,-34.424
0.030,0.767,0.147,-32.959,56.946,-39.063
0.079,0.707,0.188,-26.428,46.814,-34.058
0.080,0.688,0.115,-21.423,49.622,-28.015
0.053,0.605,-0.123,-17.456,60.364,-25.269
0.045,0.609,-0.193,-11.597,59.021,-16.968
0.057,0.734,-0.049,-4.517,47.302,-3.113
0.051,0.891,0.100,1.343,39.978,8.118
0.034,1.025,0.139,3.479,40.649,13.611
0.079,1.161,0.153,5.371,39.978,14.099
0.078,1.222,0.256,9.216,34.607,7.629
0.113,1.241,0.319,11.047,31.799,-1.892
0.095,1.304,0.273,20.142,33.813,-10.315
0.072,1.222,0.200,25.208,34.241,-24.780
0.077,1.057,0.255,24.780,28.931,-39.001
0.088,0.932,0.344,26.245,23.743,-44.250
0.083,0.873,0.402,27.405,25.696,-42.236
0.071,0.946,0.400,27.954,32.532,-34.485
0.075,1.020,0.310,28.687,41.748,-29.785
0.096,1.005,0.198,33.569,46.692,-32.227
0.157,0.992,0.209,43.457,41.992,-34.729
0.229,0.958,0.295,52.856,36.133,-36.865
0.263,0.865,0.293,56.213,37.537,-39.185
0.319,0.792,0.197,54.321,43.823,-38.818
0.338,0.799,0.198,50.171,43.518,-33.875
0.332,0.749,0.239,43.518,40.527,-31.006
0.334,0.711,0.197,33.447,42.786,-27.466
0.335,0.752,0.128,24.780,45.044,-19.531
0.345,0.790,0.133,18.799,41.138,-12.817
0.319,0.779,0.173,14.404,36.377,-9.827
0.335,0.793,0.173,16.418,32.898,-7.080
0.370,0.885,0.297,24.597,25.269,-3.662
0.394,0.922,0.452,34.485,19.226,-5.005
0.431,0.868,0.504,38.818,24.231,-10.986
0.452,0.813,0.471,37.292,35.034,-14.099
0.436,0.841,0.375,31.372,44.556,-11.597
0.412,0.873,0.207,21.667,50.415,-8.057
0.411,0.900,0.087,9.888,49.622,-5.737
0.385,0.965,0.142,1.343,38.025,-3.540
0.378,1.012,0.171,-4.333,29.541,-4.578
0.368,0.959,0.187,-7.019,24.292,-10.498
0.379,0.832,0.282,-3.906,17.090,-17.273
0.378,0.708,0.379,3.418,12.024,-18.616
0.392,0.665,0.443,15.259,11.841,-13.245
0.424,0.701,0.455,29.480,14.954,-4.883
0.456,0.756,0.446,40.649,19.836,0.183
0.463,0.830,0.428,45.593,24.414,2.808
0.474,0.900,0.369,45.776,30.151,2.686
0.484,0.944,0.285,38.879,35.522,-0.916
0.494,0.960,0.194,26.428,38.940,-6.165
0.476,0.909,0.135,11.902,39.551,-13.733
0.476,0.771,0.113,-1.343,36.804,-20.996
0.503,0.659,0.146,-7.874,31.616,-22.034
0.503,0.663,0.186,-10.620,27.466,-14.587
0.519,0.728,0.156,-12.695,27.405,-5.493
0.527,0.807,0.224,-8.850,23.071,-0.854
0.525,0.832,0.252,3.235,19.165,-1.038
0.517,0.840,0.197,18.738,19.104,-2.991
0.513,0.837,0.163,31.982,15.991,-4.822
0.504,0.835,0.186,36.621,11.475,-7.263
0.499,0.826,0.225,36.865,8.301,-9.766
0.474,0.746,0.208,32.776,8.789,-14.099
0.442,0.660,0.208,27.466,8.545,-15.137
0.433,0.661,0.266,23.132,5.554,-10.620
0.448,0.736,0.269,20.203,5.066,-3.418
0.483,0.849,0.248,17.456,6.409,1.953
0.521,0.920,0.235,15.076,5.554,3.052
0.518,0.925,0.197,11.536,6.226,-0.305
0.540,0.955,0.178,15.320,4.089,-3.235
0.520,0.916,0.237,12.451,-0.183,-9.460
0.502,0.835,0.301,7.874,-2.563,-17.334
0.501,0.747,0.377,4.517,-4.211,-21.606
0.499,0.646,0.328,2.319,-0.549,-23.926
0.492,0.650,0.281,0.854,2.380,-19.592
0.495,0.679,0.265,1.404,0.244,-14.343
0.509,0.779,0.177,-1.343,1.404,-8.728
0.534,0.957,0.083,-3.418,1.099,-3.906

1.338,1.078,0.306,-0.122,23.560,7.202
1.476,1.116,0.235,-8.789,28.625,9.216
1.643,1.078,0.288,-12.329,27.222,7.446
1.807,1.056,0.452,-8.911,23.560,9.277
1.990,1.145,0.521,-3.662,29.053,15.991
2.236,1.318,0.550,5.005,38.086,22.766
2.524,1.297,0.629,15.137,43.579,18.311
2.807,1.166,0.671,14.954,54.810,9.521
3.042,1.315,0.624,12.207,69.885,11.292
3.285,1.645,0.249,8.423,90.210,8.301
3.454,1.613,-0.175,-24.841,107.727,-24.841
3.411,0.963,-0.534,-98.389,113.586,-85.449
3.272,0.059,-1.342,-149.963,124.329,-134.766
3.104,-0.885,-2.264,-167.969,125.000,-151.550
2.735,-1.801,-2.909,-149.902,85.205,-136.719
2.170,-2.528,-3.347,-100.159,21.240,-88.440
1.189,-2.896,-3.706,-55.481,-40.161,-11.597
-0.047,-2.407,-3.920,-34.119,-98.450,89.905
-1.352,-0.311,-3.049,-11.475,-200.623,213.135
-2.733,1.982,-1.284,1.404,-325.012,276.001
-4.000,2.649,0.015,-35.767,-371.277,197.693
-4.000,0.213,-0.272,-95.764,-329.956,11.292
-4.000,-2.493,-0.434,-130.554,-333.984,-64.697
-4.000,-3.229,1.754,-160.095,-457.703,89.294
-4.000,-1.224,4.000,-230.774,-583.496,408.936
-4.000,3.746,4.000,-328.491,-582.153,812.073
-4.000,4.000,4.000,-304.749,-480.042,1197.571
-4.000,4.000,4.000,47.302,-452.087,1328.613
-4.000,4.000,4.000,339.233,191.772,577.148
-4.000,3.249,-0.706,-192.810,1217.529,-834.778
-4.000,-4.000,-4.000,-797.546,1373.413,-1759.583
-4.000,-4.000,-4.000,-835.327,607.056,-1838.318
-3.795,-4.000,-3.999,-489.075,-58.228,-1168.823
-1.885,-4.000,-0.836,-215.210,-314.087,-225.769
-1.172,-2.314,-0.029,-42.297,-235.596,455.200
-0.699,0.831,-0.832,51.331,-52.856,650.452
-0.370,2.225,-1.417,109.436,23.682,565.369
-0.097,2.754,-1.012,127.930,-27.649,403.137
0.160,2.953,0.139,108.459,-116.211,263.611
0.269,3.053,1.070,89.966,-145.264,156.006
0.261,2.954,1.153,65.186,-87.036,60.669
0.220,2.220,0.614,34.546,-12.451,-40.588
0.141,1.213,0.329,6.653,11.902,-115.784
0.108,0.532,0.375,-0.671,3.601,-136.169
0.123,0.233,0.512,-0.549,-0.244,-120.117
0.080,-0.021,0.462,0.549,14.099,-99.609
0.073,-0.219,0.160,0.854,39.001,-76.904
0.072,-0.096,-0.036,3.723,49.255,-37.109
0.077,0.299,-0.031,15.564,42.114,6.897
0.096,0.648,0.057,30.029,34.363,36.072
0.110,0.905,0.087,55.786,30.640,49.500
0.158,1.313,0.099,71.472,29.419,59.814
0.191,1.686,0.029,83.313,31.311,58.472
0.192,1.775,-0.056,77.759,33.142,33.020
0.187,1.578,-0.063,62.256,29.358,-7.568
0.178,1.175,-0.005,46.692,22.217,-44.617
0.168,0.833,0.096,35.950,17.273,-61.401
0.139,0.592,0.203,33.325,14.160,-59.753
0.145,0.442,0.263,32.532,16.541,-48.584
0.119,0.401,0.253,29.297,23.071,-31.677
0.157,0.421,0.259,26.917,27.466,-12.451
0.174,0.430,0.267,25.085,31.433,1.526
0.209,0.506,0.233,23.193,37.109,15.869
0.274,0.816,0.182,28.687,40.039,34.119
0.306,1.118,0.088,44.678,39.856,43.457
0.369,1.250,0.027,46.326,36.560,36.011
0.393,1.202,0.061,39.307,29.236,14.587
0.384,1.046,0.118,30.334,23.865,-7.446
0.375,0.798,0.079,21.179,25.024,-23.743
0.379,0.570,0.104,12.878,22.888,-28.992
0.367,0.453,0.191,7.629,17.761,-22.461
0.401,0.396,0.212,4.639,18.616,-8.362
0.433,0.356,0.207,5.127,21.057,7.629
0.448,0.416,0.255,9.644,20.325,28.870
0.440,0.560,0.286,20.752,19.775,51.025
0.434,0.770,0.307,34.912,20.752,70.374
0.429,0.984,0.297,41.138,21.545,83.252
0.397,1.275,0.318,40.344,21.790,90.454
0.380,1.521,0.291,45.959,23.071,83.740
0.343,1.502,0.245,35.645,25.635,49.988
0.324,1.171,0.223,15.686,26.367,3.662
0.322,0.774,0.263,3.296,22.217,-23.254
0.324,0.588,0.307,1.587,19.775,-18.372
0.328,0.732,0.346,8.972,20.508,5.676
0.343,0.978,0.321,28.015,23.071,27.893
0.359,1.037,0.274,46.082,25.574,31.189
0.363,1.007,0.268,54.749,24.292,22.034
0.369,0.959,0.280,61.035,21.301,13.794
0.354,0.989,0.284,60.303,20.569,12.634
0.323,1.033,0.256,54.810,22.278,11.780
0.298,1.015,0.267,43.335,21.851,3.906
0.291,0.928,0.320,31.250,19.470,-7.568
0.292,0.900,0.396,23.499,18.250,-12.634
0.300,0.916,0.424,26.062,20.386,-11.658
0.291,0.925,0.308,28.931,30.762,-10.376
0.322,0.928,0.099,36.621,39.917,-8.240
0.371,0.981,0.057,41.504,34.302,-3.418
0.400,1.010,0.111,43.152,23.132,-2.075
0.412,0.992,0.181,36.133,16.418,-2.319
0.396,0.886,0.228,32.837,13.367,-5.371
0.388,0.683,0.269,20.264,14.404,-9.705
0.374,0.544,0.337,12.085,13.977,-5.005
0.354,0.603,0.379,14.954,12.939,7.263
0.347,0.745,0.271,37.964,15.198,17.639
0.241,0.848,0.317,33.508,9.399,18.677
0.405,0.976,0.319,38.696,4.272,18.066
0.401,1.082,0.288,55.115,5.737,11.597
0.441,1.053,0.212,35.767,7.080,-4.089
0.473,0.975,0.095,33.936,9.338,-20.691
0.479,0.930,0.077,36.560,1.221,-28.992
0.493,0.886,0.175,38.879,-12.451,-33.081
0.483,0.819,0.315,31.433,-21.851,-36.682
0.486,0.780,0.412,26.062,-24.292,-36.621
0.483,0.781,0.442,21.667,-21.667,-32.959
0.505,0.766,0.388,14.099,-15.625,-29.724
0.520,0.824,0.324,5.310,-12.390,-24.475
0.570,0.867,0.277,2.197,-13.062,-21.240
0.613,0.787,0.280,0.122,-16.418,-24.719
0.641,0.683,0.304,-4.700,-18.555,-26.184

